[
    {
        "resourceType": "Patient",
        "id": "example",
        "text": {
            "status": "generated",
            "div": "<div xmlns=\"http://www.w3.org/1999/xhtml\">\n\t\t\t<table>\n\t\t\t\t<tbody>\n\t\t\t\t\t<tr>\n\t\t\t\t\t\t<td>Name</td>\n\t\t\t\t\t\t<td>Peter James \n              <b>Chalmers</b> (&quot;Jim&quot;)\n            </td>\n\t\t\t\t\t</tr>\n\t\t\t\t\t<tr>\n\t\t\t\t\t\t<td>Address</td>\n\t\t\t\t\t\t<td>534 Erewhon, Pleasantville, Vic, 3999</td>\n\t\t\t\t\t</tr>\n\t\t\t\t\t<tr>\n\t\t\t\t\t\t<td>Contacts</td>\n\t\t\t\t\t\t<td>Home: unknown. Work: (03) 5555 6473</td>\n\t\t\t\t\t</tr>\n\t\t\t\t\t<tr>\n\t\t\t\t\t\t<td>Id</td>\n\t\t\t\t\t\t<td>MRN: 12345 (Acme Healthcare)</td>\n\t\t\t\t\t</tr>\n\t\t\t\t</tbody>\n\t\t\t</table>\n\t\t</div>"
        },
        "identifier": [
            {
                "use": "usual",
                "type": {
                    "coding": [
                        {
                            "system": "http://terminology.hl7.org/CodeSystem/v2-0203",
                            "code": "MR"
                        }
                    ]
                },
                "system": "urn:oid:1.2.36.146.595.217.0.1",
                "value": "12345",
                "period": {
                    "start": "2001-05-06"
                },
                "assigner": {
                    "display": "Acme Healthcare"
                }
            }
        ],
        "active": true,
        "name": [
            {
                "use": "official",
                "family": "Test Search",
                "given": [
                    "Maria",
                    "Test Search"
                ]
            },
            {
                "use": "usual",
                "given": [
                    "Jim"
                ]
            },
            {
                "use": "maiden",
                "family": "Windsor",
                "given": [
                    "Peter",
                    "James"
                ],
                "period": {
                    "end": "2002"
                }
            }
        ],
        "telecom": [
            {
                "use": "home"
            },
            {
                "system": "phone",
                "value": "(03) 5555 6473",
                "use": "work",
                "rank": 1
            },
            {
                "system": "phone",
                "value": "(03) 3410 5613",
                "use": "mobile",
                "rank": 2
            },
            {
                "system": "phone",
                "value": "(03) 5555 8834",
                "use": "old",
                "period": {
                    "end": "2014"
                }
            }
        ],
        "gender": "male",
        "birthDate": "1974-12-25",
        "_birthDate": {
            "extension": [
                {
                    "url": "http://hl7.org/fhir/StructureDefinition/patient-birthTime",
                    "valueDateTime": "1974-12-25T14:35:45-05:00"
                }
            ]
        },
        "deceasedBoolean": false,
        "address": [
            {
                "use": "home",
                "type": "both",
                "text": "534 Erewhon St PeasantVille, Rainbow, Vic  3999",
                "line": [
                    "534 Erewhon St"
                ],
                "city": "PleasantVille",
                "district": "Rainbow",
                "state": "Vic",
                "postalCode": "3999",
                "period": {
                    "start": "1974-12-25"
                }
            }
        ],
        "contact": [
            {
                "relationship": [
                    {
                        "coding": [
                            {
                                "system": "http://terminology.hl7.org/CodeSystem/v2-0131",
                                "code": "N"
                            }
                        ]
                    }
                ],
                "name": {
                    "family": "du Marché",
                    "_family": {
                        "extension": [
                            {
                                "url": "http://hl7.org/fhir/StructureDefinition/humanname-own-prefix",
                                "valueString": "VV"
                            }
                        ]
                    },
                    "given": [
                        "Bénédicte"
                    ]
                },
                "telecom": [
                    {
                        "system": "phone",
                        "value": "+33 (237) 998327"
                    }
                ],
                "address": {
                    "use": "home",
                    "type": "both",
                    "line": [
                        "534 Erewhon St"
                    ],
                    "city": "PleasantVille",
                    "district": "Rainbow",
                    "state": "Vic",
                    "postalCode": "3999",
                    "period": {
                        "start": "1974-12-25"
                    }
                },
                "gender": "female",
                "period": {
                    "start": "2012"
                }
            }
        ],
        "managingOrganization": {
            "reference": "Organization/1"
        }
    },
    {
        "resourceType": "DiagnosticReport",
        "id": "f001",
        "text": {
            "status": "generated",
            "div": "<div xmlns=\"http://www.w3.org/1999/xhtml\"><p><b>Generated Narrative with Details</b></p><p><b>id</b>: f001</p><p><b>identifier</b>: nr1239044 (OFFICIAL)</p><p><b>basedOn</b>: <a>ServiceRequest/req</a></p><p><b>status</b>: final</p><p><b>category</b>: Haematology test <span>(Details : {SNOMED CT code '252275004' = 'Haematology test', given as 'Haematology test'}; {http://terminology.hl7.org/CodeSystem/v2-0074 code 'HM' = 'Hematology)</span></p><p><b>code</b>: Complete blood count (hemogram) panel - Blood by Automated count <span>(Details : {LOINC code '58410-2' = 'Complete blood count (hemogram) panel - Blood by Automated count', given as 'Complete blood count (hemogram) panel - Blood by Automated count'})</span></p><p><b>subject</b>: <a>P. van den Heuvel</a></p><p><b>issued</b>: 15/05/2013 7:32:52 PM</p><p><b>performer</b>: <a>Burgers University Medical Centre</a></p><p><b>result</b>: </p><ul><li><a>Observation/f001</a></li><li><a>Observation/f002</a></li><li><a>Observation/f003</a></li><li><a>Observation/f004</a></li><li><a>Observation/f005</a></li></ul><p><b>conclusion</b>: Core lab</p></div>"
        },
        "identifier": [
            {
                "use": "official",
                "system": "http://www.bmc.nl/zorgportal/identifiers/reports",
                "value": "nr1239044"
            }
        ],
        "basedOn": [
            {
                "reference": "ServiceRequest/req"
            }
        ],
        "status": "final",
        "category": [
            {
                "coding": [
                    {
                        "system": "http://snomed.info/sct",
                        "code": "252275004",
                        "display": "Haematology test"
                    },
                    {
                        "system": "http://terminology.hl7.org/CodeSystem/v2-0074",
                        "code": "HM"
                    }
                ]
            }
        ],
        "code": {
            "coding": [
                {
                    "system": "http://loinc.org",
                    "code": "58410-2",
                    "display": "Complete blood count (hemogram) panel - Blood by Automated count"
                }
            ]
        },
        "subject": {
            "reference": "Patient/f001",
            "display": "P. van den Heuvel"
        },
        "issued": "2013-05-15T19:32:52+01:00",
        "performer": [
            {
                "reference": "Organization/f001",
                "display": "Burgers University Medical Centre"
            }
        ],
        "result": [
            {
                "reference": "Observation/f001"
            },
            {
                "reference": "Observation/f002"
            },
            {
                "reference": "Observation/f003"
            },
            {
                "reference": "Observation/f004"
            },
            {
                "reference": "Observation/f005"
            }
        ],
        "conclusion": "Core lab"
    },
    {
        "resourceType": "Observation",
        "id": "f001",
        "text": {
            "status": "generated",
            "div": "<div xmlns=\"http://www.w3.org/1999/xhtml\"><p><b>Generated Narrative with Details</b></p><p><b>id</b>: f001</p><p><b>identifier</b>: 6323 (OFFICIAL)</p><p><b>status</b>: final</p><p><b>code</b>: Glucose [Moles/volume] in Blood <span>(Details : {LOINC code '15074-8' = 'Glucose [Moles/volume] in Blood', given as 'Glucose [Moles/volume] in Blood'})</span></p><p><b>subject</b>: <a>P. van de Heuvel</a></p><p><b>effective</b>: 02/04/2013 9:30:10 AM --&gt; (ongoing)</p><p><b>issued</b>: 03/04/2013 3:30:10 PM</p><p><b>performer</b>: <a>A. Langeveld</a></p><p><b>value</b>: 6.3 mmol/l<span> (Details: UCUM code mmol/L = 'mmol/L')</span></p><p><b>interpretation</b>: High <span>(Details : {http://terminology.hl7.org/CodeSystem/v3-ObservationInterpretation code 'H' = 'High', given as 'High'})</span></p><h3>ReferenceRanges</h3><table><tr><td>-</td><td><b>Low</b></td><td><b>High</b></td></tr><tr><td>*</td><td>3.1 mmol/l<span> (Details: UCUM code mmol/L = 'mmol/L')</span></td><td>6.2 mmol/l<span> (Details: UCUM code mmol/L = 'mmol/L')</span></td></tr></table></div>"
        },
        "identifier": [
            {
                "use": "official",
                "system": "http://www.bmc.nl/zorgportal/identifiers/observations",
                "value": "6323"
            }
        ],
        "status": "final",
        "code": {
            "coding": [
                {
                    "system": "http://loinc.org",
                    "code": "15074-8",
                    "display": "Glucose [Moles/volume] in Blood"
                }
            ]
        },
        "subject": {
            "reference": "Patient/f001",
            "display": "P. van de Heuvel"
        },
        "effectivePeriod": {
            "start": "2013-04-02T09:30:10+01:00"
        },
        "issued": "2013-04-03T15:30:10+01:00",
        "performer": [
            {
                "reference": "Practitioner/f005",
                "display": "A. Langeveld"
            }
        ],
        "valueQuantity": {
            "value": 6.3,
            "unit": "mmol/l",
            "system": "http://unitsofmeasure.org",
            "code": "mmol/L"
        },
        "interpretation": [
            {
                "coding": [
                    {
                        "system": "http://terminology.hl7.org/CodeSystem/v3-ObservationInterpretation",
                        "code": "H",
                        "display": "High"
                    }
                ]
            }
        ],
        "referenceRange": [
            {
                "low": {
                    "value": 3.1,
                    "unit": "mmol/l",
                    "system": "http://unitsofmeasure.org",
                    "code": "mmol/L"
                },
                "high": {
                    "value": 6.2,
                    "unit": "mmol/l",
                    "system": "http://unitsofmeasure.org",
                    "code": "mmol/L"
                }
            }
        ]
    },
    {
        "resourceType": "Observation",
        "id": "f004",
        "text": {
            "status": "generated",
            "div": "<div xmlns=\"http://www.w3.org/1999/xhtml\"><p><b>Generated Narrative with Details</b></p><p><b>id</b>: f004</p><p><b>identifier</b>: 6326 (OFFICIAL)</p><p><b>status</b>: final</p><p><b>code</b>: Erythrocytes [#/volume] in Blood by Automated count <span>(Details : {LOINC code '789-8' = 'Erythrocytes [#/volume] in Blood by Automated count', given as 'Erythrocytes [#/volume] in Blood by Automated count'})</span></p><p><b>subject</b>: <a>P. van de Heuvel</a></p><p><b>effective</b>: 02/04/2013 10:30:10 AM --&gt; 05/04/2013 10:30:10 AM</p><p><b>issued</b>: 03/04/2013 3:30:10 PM</p><p><b>performer</b>: <a>A. Langeveld</a></p><p><b>value</b>: 4.12 10^12/L<span> (Details: UCUM code 10*12/L = '10*12/L')</span></p><p><b>interpretation</b>: Low <span>(Details : {http://terminology.hl7.org/CodeSystem/v3-ObservationInterpretation code 'L' = 'Low', given as 'Low'})</span></p><h3>ReferenceRanges</h3><table><tr><td>-</td><td><b>Text</b></td></tr><tr><td>*</td><td> 12-14 y Male: 4.4 - 5.2  x  10^12/L ; 12-14 y Female: 4.2 - 4.8  x  10^12/L ; 15-17 y Male: 4.6 - 5.4  x  10^12/L ; 15-17 y Female: 4.2 - 4.8  x  10^12/L ; 18-64 y Male: 4.6 - 5.4  x  10^12/L ; 18-64 y Female: 4.0 - 4.8  x  10^12/L ; 65-74 y Male: 4.3 - 5.3  x  10^12/L ; 65-74 y Female: 4.1 - 4.9  x  10^12/L       </td></tr></table></div>"
        },
        "identifier": [
            {
                "use": "official",
                "system": "http://www.bmc.nl/zorgportal/identifiers/observations",
                "value": "6326"
            }
        ],
        "status": "final",
        "code": {
            "coding": [
                {
                    "system": "http://loinc.org",
                    "code": "789-8",
                    "display": "Erythrocytes [#/volume] in Blood by Automated count"
                }
            ]
        },
        "subject": {
            "reference": "Patient/f001",
            "display": "P. van de Heuvel"
        },
        "effectivePeriod": {
            "start": "2013-04-02T10:30:10+01:00",
            "end": "2013-04-05T10:30:10+01:00"
        },
        "issued": "2013-04-03T15:30:10+01:00",
        "performer": [
            {
                "reference": "Practitioner/f005",
                "display": "A. Langeveld"
            }
        ],
        "valueQuantity": {
            "value": 4.12,
            "unit": "10^12/L",
            "system": "http://unitsofmeasure.org",
            "code": "10*12/L"
        },
        "interpretation": [
            {
                "coding": [
                    {
                        "system": "http://terminology.hl7.org/CodeSystem/v3-ObservationInterpretation",
                        "code": "L",
                        "display": "Low"
                    }
                ]
            }
        ],
        "referenceRange": [
            {
                "text": " 12-14 y Male: 4.4 - 5.2  x  10^12/L ; 12-14 y Female: 4.2 - 4.8  x  10^12/L ; 15-17 y Male: 4.6 - 5.4  x  10^12/L ; 15-17 y Female: 4.2 - 4.8  x  10^12/L ; 18-64 y Male: 4.6 - 5.4  x  10^12/L ; 18-64 y Female: 4.0 - 4.8  x  10^12/L ; 65-74 y Male: 4.3 - 5.3  x  10^12/L ; 65-74 y Female: 4.1 - 4.9  x  10^12/L       "
            }
        ]
    },
    {
        "resourceType": "Observation",
        "id": "f003",
        "text": {
            "status": "generated",
            "div": "<div xmlns=\"http://www.w3.org/1999/xhtml\"><p><b>Generated Narrative with Details</b></p><p><b>id</b>: f003</p><p><b>identifier</b>: 6325 (OFFICIAL)</p><p><b>status</b>: final</p><p><b>code</b>: Carbon dioxide in blood <span>(Details : {LOINC code '11557-6' = 'Carbon dioxide [Partial pressure] in Blood', given as 'Carbon dioxide in blood'})</span></p><p><b>subject</b>: <a>P. van de Heuvel</a></p><p><b>effective</b>: 02/04/2013 10:30:10 AM --&gt; 05/04/2013 10:30:10 AM</p><p><b>issued</b>: 03/04/2013 3:30:10 PM</p><p><b>performer</b>: <a>A. Langeveld</a></p><p><b>value</b>: 6.2 kPa<span> (Details: UCUM code kPa = 'kPa')</span></p><p><b>interpretation</b>: High <span>(Details : {http://terminology.hl7.org/CodeSystem/v3-ObservationInterpretation code 'H' = 'High', given as 'High'})</span></p><h3>ReferenceRanges</h3><table><tr><td>-</td><td><b>Low</b></td><td><b>High</b></td></tr><tr><td>*</td><td>4.8 kPa<span> (Details: UCUM code kPa = 'kPa')</span></td><td>6.0 kPa<span> (Details: UCUM code kPa = 'kPa')</span></td></tr></table></div>"
        },
        "identifier": [
            {
                "use": "official",
                "system": "http://www.bmc.nl/zorgportal/identifiers/observations",
                "value": "6325"
            }
        ],
        "status": "final",
        "code": {
            "coding": [
                {
                    "system": "http://loinc.org",
                    "code": "11557-6",
                    "display": "Carbon dioxide in blood"
                }
            ]
        },
        "subject": {
            "reference": "Patient/f001",
            "display": "P. van de Heuvel"
        },
        "effectivePeriod": {
            "start": "2013-04-02T10:30:10+01:00",
            "end": "2013-04-05T10:30:10+01:00"
        },
        "issued": "2013-04-03T15:30:10+01:00",
        "performer": [
            {
                "reference": "Practitioner/f005",
                "display": "A. Langeveld"
            }
        ],
        "valueQuantity": {
            "value": 6.2,
            "unit": "kPa",
            "system": "http://unitsofmeasure.org",
            "code": "kPa"
        },
        "interpretation": [
            {
                "coding": [
                    {
                        "system": "http://terminology.hl7.org/CodeSystem/v3-ObservationInterpretation",
                        "code": "H",
                        "display": "High"
                    }
                ]
            }
        ],
        "referenceRange": [
            {
                "low": {
                    "value": 4.8,
                    "unit": "kPa",
                    "system": "http://unitsofmeasure.org",
                    "code": "kPa"
                },
                "high": {
                    "value": 6.0,
                    "unit": "kPa",
                    "system": "http://unitsofmeasure.org",
                    "code": "kPa"
                }
            }
        ]
    }
]